wavenumber,intensity
23.9,1773.8050
27.2,1841.9590
30.5,1890.0060
33.8,1727.7310
37.1,1196.4950
40.4,2366.0780
43.7,1921.0650
46.9,1682.4460
50.2,1710.6170
53.5,1714.4700
56.7,1608.6430
60.0,1714.2440
63.3,1669.2310
66.5,1787.5930
69.8,1407.0960
73.0,1630.9580
76.3,1742.4370
79.5,1871.3470
82.8,2024.6950
86.0,2150.5690
89.3,2015.9920
92.5,2026.0790
95.7,1914.7310
99.0,1916.8700
102.2,1801.8770
105.4,1659.6750
108.6,1587.9210
111.8,1583.7000
115.1,1598.6270
118.3,1590.4780
121.5,1411.4530
124.7,1510.0140
127.9,1529.8450
131.1,1553.8120
134.3,1441.6010
137.5,1552.4960
140.7,1555.3870
143.8,1423.6370
147.0,1423.1570
150.2,1419.0020
153.4,1357.2990
156.6,1320.3620
159.7,1475.1370
162.9,1344.2180
166.1,1413.2020
169.2,1352.0090
172.4,1343.0240
175.5,1391.8020
178.7,1371.1910
181.8,1318.1170
185.0,1374.7080
188.1,1415.2240
191.3,1235.8690
194.4,1491.5880
197.5,1274.8150
200.7,1164.4950
203.8,1394.9680
206.9,1257.3640
210.0,1510.1090
213.2,1375.1230
216.3,1389.9530
219.4,1401.8170
222.5,1205.1850
225.6,1284.8580
228.7,1404.9100
231.8,1318.4900
234.9,1318.4270
238.0,1326.6470
241.1,1315.7650
244.2,1295.4200
247.3,1292.7810
250.3,1280.3590
253.4,1239.8910
256.5,1287.0790
259.6,1143.0910
262.7,1248.4700
265.7,1203.5880
268.8,1246.6730
271.8,1241.5180
274.9,1256.4010
278.0,1257.0290
281.0,1170.1450
284.1,1163.9280
287.1,1164.2370
290.2,1223.9380
293.2,1221.7360
296.2,1156.6480
299.3,1234.8720
302.3,1143.5980
305.3,1199.2000
308.4,1191.0110
311.4,1168.1690
314.4,1214.5500
317.4,1185.1920
320.4,1116.8020
323.5,1178.6250
326.5,1200.4310
329.5,1116.7600
332.5,1231.5220
335.5,1128.9000
338.5,1190.9270
341.5,1230.9580
344.5,1146.2910
347.4,1192.2300
350.4,1172.4200
353.4,1227.4510
356.4,1250.2920
359.4,1301.3080
362.3,1376.0540
365.3,1355.3900
368.3,1528.5770
371.2,1687.6570
374.2,1919.9680
377.2,2144.9630
380.1,2149.9470
383.1,2124.8510
386.0,1658.8220
389.0,1509.5970
391.9,1403.2650
394.9,1357.1080
397.8,1351.2580
400.7,1332.7770
403.7,1337.8080
406.6,1388.2530
409.5,1518.3670
412.5,1569.9750
415.4,1916.4220
418.3,2192.6400
421.2,2530.0640
424.1,2649.5860
427.0,2129.1040
429.9,1860.7130
432.9,1541.8630
435.8,1432.5070
438.7,1357.0270
441.5,1295.9730
444.4,1260.3190
447.3,1273.4940
450.2,1218.4530
453.1,1228.7350
456.0,1221.1800
458.9,1214.4560
461.7,1230.0590
464.6,1206.5100
467.5,1231.1520
470.4,1208.1790
473.2,1250.5590
476.1,1227.0980
478.9,1239.4050
481.8,1172.8040
484.6,1171.6600
487.5,1108.4670
490.3,1133.7030
493.2,1173.3010
496.0,1142.4220
498.9,1113.7780
501.7,1097.2160
504.5,1071.7050
507.4,1068.3740
510.2,1126.9140
513.0,1084.0060
515.9,1121.9740
518.7,1085.3600
521.5,1086.7830
524.3,1073.6970
527.1,1085.0300
529.9,1124.6550
532.7,1070.0130
535.5,1072.2380
538.3,1028.5470
541.1,1097.5350
543.9,1051.2310
546.7,1014.0760
549.5,1040.2710
552.3,1021.6750
555.1,1042.7680
557.9,1009.3380
560.6,1006.1070
563.4,1050.4030
566.2,1078.9490
568.9,1042.7640
571.7,1049.9960
574.5,1048.2550
577.2,1063.0100
580.0,1011.9450
582.7,1036.1840
585.5,1050.5380
588.2,1025.9800
591.0,1008.2910
593.7,1055.9090
596.5,1023.2790
599.2,1026.7980
602.0,1044.1880
604.7,1045.8370
607.4,1036.8130
610.1,1031.2430
612.9,1009.2240
615.6,1028.5420
618.3,1049.9830
621.0,1053.1370
623.7,1073.2290
626.5,1015.8070
629.2,974.9250
631.9,1033.4220
634.6,1006.0230
637.3,1015.2390
640.0,1005.3360
642.7,1018.9970
645.4,1011.1960
648.1,1009.7000
650.7,1025.1900
653.4,1014.2140
656.1,1033.6670
658.8,1025.1280
661.5,1029.9250
664.1,1024.8380
666.8,1028.1150
669.5,996.0710
672.1,984.6220
674.8,1019.5860
677.5,984.8410
680.1,1013.8810
682.8,1041.8050
685.4,1025.2700
688.1,1013.5330
690.7,1000.4140
693.4,968.0290
696.0,1025.6320
698.6,1032.0060
701.3,1015.0980
703.9,1041.4510
706.5,1012.4930
709.2,1041.0980
711.8,1027.0040
714.4,1061.8950
717.0,999.9650
719.6,1046.2840
722.3,1043.0260
724.9,1080.7640
727.5,1071.8610
730.1,1070.7010
732.7,1042.0810
735.3,1037.5190
737.9,1049.0670
740.5,1107.8710
743.1,1080.0470
745.7,1105.1030
748.2,1113.3200
750.8,1183.4320
753.4,1169.8250
756.0,1189.1740
758.6,1214.8010
761.1,1250.2000
763.7,1293.1700
766.3,1318.8060
768.8,1337.6510
771.4,1428.7240
774.0,1483.7300
776.5,1591.8240
779.1,1693.0000
781.6,1879.4690
784.2,2014.8770
786.7,2557.4120
789.3,3007.4630
791.8,5795.7180
794.4,10140.5560
796.9,17022.3080
799.4,35167.2140
802.0,26447.3930
804.5,7099.8900
807.0,3308.1460
809.5,2325.4190
812.1,1828.3220
814.6,1686.4970
817.1,1504.5470
819.6,1447.2460
822.1,1353.8600
824.6,1305.0470
827.1,1280.4200
829.6,1243.7420
832.1,1212.7770
834.6,1200.2270
837.1,1210.7610
839.6,1210.8030
842.1,1211.6310
844.6,1195.1070
847.1,1187.5800
849.6,1204.3200
852.0,1242.3820
854.5,1166.5480
857.0,1130.8070
859.5,1108.1960
861.9,1065.5670
864.4,1106.3710
866.9,1094.8000
869.3,1082.7060
871.8,1062.9960
874.2,1074.3140
876.7,1103.8120
879.1,1068.7210
881.6,1044.2880
884.0,1080.2850
886.5,1063.7920
888.9,1053.5410
891.3,1049.9930
893.8,1063.5680
896.2,1085.3170
898.6,1102.1910
901.1,1082.8750
903.5,1093.3700
905.9,1083.4680
908.3,1077.8630
910.8,1055.8430
913.2,1060.0990
915.6,1052.0030
918.0,1041.1140
920.4,1031.7880
922.8,1049.7070
925.2,1028.6890
927.6,1025.2300
930.0,1010.6120
932.4,1005.3130
934.8,1012.3960
937.2,1021.0110
939.6,1059.7490
941.9,1026.3320
944.3,1021.5580
946.7,1032.0780
949.1,1023.0570
951.5,1012.8960
953.8,1021.2260
956.2,1043.5320
958.6,1042.6850
960.9,1025.1810
963.3,1026.6740
965.6,1034.8150
968.0,1049.3700
970.4,1040.3540
972.7,1053.6770
975.1,1092.2310
977.4,1098.7410
979.7,1142.9870
982.1,1112.4800
984.4,1139.3130
986.8,1152.3080
989.1,1189.4460
991.4,1226.4000
993.8,1268.4330
996.1,1299.7970
998.4,1368.7360
1000.7,1473.8310
1003.0,1511.2070
1005.4,1644.8780
1007.7,1779.5620
1010.0,2038.5330
1012.3,2207.6550
1014.6,2699.2620
1016.9,3067.4420
1019.2,4000.7540
1021.5,4653.3320
1023.8,5588.6380
1026.1,6171.4360
1028.4,5515.8180
1030.7,4884.2770
1033.0,3649.0380
1035.2,3119.5730
1037.5,2462.7740
1039.8,2200.0060
1042.1,1958.0650
1044.3,1788.1330
1046.6,1664.0840
1048.9,1546.0540
1051.2,1428.5770
1053.4,1428.0550
1055.7,1306.5470
1057.9,1311.5070
1060.2,1256.4990
1062.4,1263.3500
1064.7,1195.4230
1066.9,1192.4680
1069.2,1119.4610
1071.4,1143.1840
1073.7,1156.0220
1075.9,1121.8050
1078.2,1123.9920
1080.4,1121.0460
1082.6,1054.0360
1084.9,1093.3670
1087.1,1084.7670
1089.3,1077.2470
1091.5,1083.5990
1093.7,1091.1440
1096.0,1061.4410
1098.2,1084.8140
1100.4,1059.0360
1102.6,1059.8240
1104.8,1090.3870
1107.0,1078.5330
1109.2,1083.5590
1111.4,1066.6750
1113.6,1082.6800
1115.8,1064.0330
1118.0,1067.9860
1120.2,1060.6940
1122.4,1030.9100
1124.6,1037.6220
1126.7,1025.9730
1128.9,1052.6410
1131.1,1105.7150
1133.3,1084.7520
1135.4,1128.8820
1137.6,1132.5330
1139.8,1111.0620
1142.0,1157.2310
1144.1,1187.7690
1146.3,1204.3820
1148.4,1349.7130
1150.6,1510.5510
1152.7,2051.6370
1154.9,2378.5250
1157.0,2642.1140
1159.2,1944.3220
1161.3,1354.8600
1165.0,1115.1390
1167.5,1134.6680
1170.0,1052.4410
1172.5,1064.6720
1175.0,1040.4970
1177.5,979.1640
1180.0,977.9680
1182.5,981.0140
1185.0,942.1660
1187.5,973.7600
1189.9,967.0920
1192.4,889.7560
1194.9,937.5510
1197.4,952.6840
1199.9,855.9790
1202.4,970.6200
1204.9,941.2220
1207.3,951.5220
1209.8,931.7920
1212.3,966.7370
1214.8,984.2030
1217.2,917.4710
1219.7,956.0350
1222.2,1039.0250
1224.6,1065.0990
1227.1,1129.4750
1229.5,1118.3960
1232.0,1147.8780
1234.5,1303.7930
1236.9,1309.2600
1239.4,1564.7780
1241.8,1629.5380
1244.3,1904.5980
1246.7,2142.1750
1249.2,2586.8780
1251.6,3062.6420
1254.1,3957.8070
1256.5,5148.8190
1258.9,6581.8610
1261.4,8215.2390
1263.8,8586.4870
1266.2,8323.6420
1268.7,5905.5600
1271.1,4946.1570
1273.5,3435.0090
1276.0,3096.0950
1278.4,2386.5130
1280.8,2207.4430
1283.2,1895.8770
1285.6,1609.9770
1288.1,1379.6690
1290.5,1357.4460
1292.9,1201.4440
1295.3,1125.0630
1297.7,1017.9590
1300.1,995.8970
1302.5,866.5910
1304.9,876.9280
1307.3,839.6270
1309.7,776.0250
1312.1,821.3210
1314.5,763.9530
1316.9,664.1170
1319.3,696.4590
1321.7,686.0030
1324.1,784.7820
1326.5,817.1120
1328.9,907.3260
1331.2,941.6280
1333.6,1041.9230
1336.0,1210.3170
1338.4,1412.6230
1340.8,1549.0800
1343.1,1802.9870
1345.5,1754.4350
1347.9,1746.4390
1350.2,1432.1980
1352.6,1198.8840
1355.0,950.7410
1357.3,810.0560
1359.7,681.4810
1362.0,687.4970
1364.4,539.4030
1366.8,519.7430
1369.1,506.3340
1371.5,473.3760
1373.8,405.1120
1376.2,388.0500
1378.5,450.5000
1380.8,407.6470
1383.2,401.5390
1385.5,389.1370
1387.9,401.0610
1390.2,393.6780
1392.5,500.6070
1394.9,451.6190
1397.2,512.9520
1399.5,540.8460
1401.8,613.8560
1404.2,687.4050
1406.5,720.5370
1408.8,933.7730
1411.1,1028.7190
1413.5,1158.7270
1415.8,1442.0490
1418.1,1688.6510
1420.4,2107.2700
1422.7,2368.3190
1425.0,2767.0970
1427.3,2981.6910
1429.6,3570.4580
1431.9,4079.2710
1434.2,5470.9440
1436.5,6467.0100
1438.8,8136.2240
1441.1,9424.5720
1443.4,8603.0710
1445.7,7732.1840
1448.0,5617.7490
1450.3,4658.9780
1452.5,3460.6770
1454.8,3020.8050
1457.1,2534.0480
1459.4,2309.0450
1461.7,2114.9660
1463.9,2300.2370
1466.2,1785.5470
1468.5,1389.7460
1470.8,1123.2860
1473.0,1047.4120
1475.3,890.6260
1477.6,911.2810
1479.8,845.6730
1482.1,854.2980
1484.3,706.8900
1486.6,688.3400
1488.8,582.5920
1491.1,543.5640
1493.3,481.6110
1495.6,427.7240
1497.8,399.2430
1500.1,336.6880
1502.3,301.2030
1504.6,311.6940
1506.8,253.5910
1509.0,230.9850
1511.3,194.3910
1513.5,192.0210
1515.7,208.9650
1518.0,216.1240
1520.2,189.9510
1522.4,152.9790
1524.6,194.7770
1526.9,153.0470
1529.1,143.3830
1531.3,167.8230
1533.5,165.9310
1535.7,154.1970
1537.9,197.0210
1540.2,172.8970
1542.4,196.1890
1544.6,141.2940
1546.8,77.9100
1549.0,124.0050
1551.2,115.0900
1553.4,109.2210
1555.6,167.7530
1557.8,140.5900
1560.0,149.7200
1562.2,154.5150
1564.3,183.9890
1566.5,155.3670
1568.7,219.1920
1570.9,185.0930
1573.1,126.1060
1575.3,164.8180
1577.4,142.1390
1579.6,117.5350
1581.8,115.9500
1584.0,71.3490
1586.1,95.8400
1588.3,100.9360
1590.5,109.6470
1592.6,111.2130
1594.8,58.5590
1596.9,75.6230
1599.1,72.4950
1601.3,97.2470
1603.4,67.5760
1605.6,48.2790
1607.7,115.6670
1609.9,74.7560
1612.0,63.1330
1614.2,65.4240
1616.3,84.1420
1618.4,71.0520
1620.6,66.2560
1622.7,79.5940
1624.9,103.1010
1627.0,76.2320
1629.1,72.0340
1631.2,98.8520
1633.4,82.9560
1635.5,41.3140
1637.6,63.0410
1639.7,71.3770
1641.9,70.4910
1644.0,37.0100
1646.1,131.7510
1648.2,74.8640
1650.3,66.4830
1652.4,58.6410
1654.5,51.7860
1656.6,80.1540
1658.8,53.1550
1660.9,100.3340
1663.0,86.5840
1665.1,87.0650
1667.1,35.2480
1669.2,60.1070
1671.3,78.5200
1673.4,104.0480
1675.5,154.6810
1677.6,92.5340
1679.7,118.3100
1681.8,117.0540
1683.8,132.9690
1685.9,134.9630
1688.0,177.2340
1690.1,190.5680
1692.2,183.6380
1694.2,143.6420
1696.3,132.6060
1698.4,140.3020
1700.4,100.2290
1702.5,88.2300
1704.6,82.3810
1706.6,84.7180
1708.7,93.0660
1710.7,90.3390
1712.8,84.4910
1714.8,84.8310
1716.9,61.9690
1718.9,111.2940
1721.0,130.5150
1723.0,58.9860
1725.1,123.4140
1727.1,82.6860
1729.1,83.4850
1731.2,94.6330
1733.2,63.1600
1735.2,96.2360
1737.3,68.9660
1739.3,46.9810
1741.3,66.8130
1743.4,53.8850
1745.4,84.3800
1747.4,71.6560
1749.4,63.8810
1751.4,74.5340
1753.5,66.7280
1755.5,73.1580
1757.5,40.8180
1759.5,112.4880
1761.5,78.9230
1763.5,75.5180
1765.5,66.2640
1767.5,47.7380
1769.5,83.0250
1771.5,62.7550
1773.5,55.6750
1775.5,112.2000
1777.5,76.8700
1779.5,73.7100
1781.5,91.3410
1783.4,103.5450
1785.4,92.5870
1787.4,54.7310
1789.4,87.3530
1791.4,79.8820
1793.3,108.7400
1795.3,114.1930
1797.3,93.4710
1799.3,93.0560
1801.2,123.6960
1803.2,117.4390
1805.2,61.7320
1807.1,111.3980
1809.1,138.1480
1811.0,82.0640
1813.0,135.9920
1815.0,126.4370
1816.9,105.4610
1818.9,92.6340
1820.8,71.7780
1822.8,95.3100
1824.7,57.3870
1826.6,47.5710
1828.6,136.6410
1830.5,87.0720
1832.5,91.8310
1834.4,112.9520
1836.3,149.0680
1838.3,36.6790
1840.2,88.3540
1842.1,111.4810
1844.0,69.3210
1846.0,136.8390
1847.9,113.3190
1849.8,109.5740
1851.7,74.3030
1853.6,141.9900
1855.6,0.0000
1857.5,87.6390
1859.4,51.4580
1861.3,122.1010
1863.2,104.6550
1865.1,146.0440
1867.0,137.5270
1868.9,143.5170
1870.8,128.3770
1872.7,111.3550
1874.6,109.7020
1876.5,83.0600
1878.4,107.9330
1880.3,89.2430
1882.2,111.4930
1884.0,54.0620
1885.9,105.7970
1887.8,63.5390
1889.7,64.4610
1891.6,70.7630
1893.4,27.6700
1895.3,74.0980
1897.2,8.1740
1899.0,72.7630
1900.9,79.7620
1902.8,82.5340
1904.6,59.1400
1906.5,49.8690
1908.4,84.7730
1910.2,114.2080
1912.1,91.9390
1913.9,133.6470
1915.8,65.3880
1917.6,77.0720
1919.5,67.3490
1921.3,47.9530
1923.2,94.6560
1925.0,92.4900
1926.9,120.1790
1928.7,139.4800
1930.5,116.0930
1932.4,91.5570
1934.2,74.9400
1936.0,110.3120
1937.9,93.5960
1939.7,143.8390
1941.5,96.9570
1943.3,116.1130
1945.1,75.0620
1947.0,118.7550
1948.8,93.1680
1950.6,160.3800
1952.4,109.0550
1954.2,156.4280
1956.0,136.1930
1957.8,154.3200
1959.6,177.7330
1961.4,155.0630
1963.2,155.4160
1965.0,171.6060
1966.8,145.9370
1968.6,173.3280
1970.4,151.9530
1972.2,185.5670
1974.0,171.8090
1975.8,186.9480
1977.6,118.4570
1979.4,161.7080
1981.1,149.6750
1982.9,160.5720
1984.7,107.8200
1986.5,128.3150
1988.3,135.8590
1990.0,115.6250
1991.8,125.6270
1993.6,123.9840
1995.3,78.5400
1997.1,117.6000
1998.9,103.5270
2000.6,115.0900
2002.4,71.4880
2004.1,34.4120
2005.9,96.5010
2007.6,56.5810
2009.4,141.9720
2011.1,95.2940
2012.9,107.6740
2014.6,116.1210
2016.4,68.9160
2018.1,100.2530
2019.8,52.6980
2021.6,106.3520
2023.3,63.2160
2025.1,129.5380
2026.8,25.2220
2028.5,78.4500
2030.2,43.8020
2032.0,106.8980
2033.7,101.4750
2035.4,150.7750
2037.1,64.6210
2038.8,125.9460
2040.6,148.4190
2042.3,122.1380
2044.0,146.8310
2045.7,201.3540
2047.4,169.9320
2049.1,191.1430
2050.8,145.8400
2052.5,188.3390
2054.2,163.3580
2055.9,121.8460
2057.6,130.8010
2059.3,184.7720
2061.0,76.6510
2062.7,170.7350
2064.4,91.4720
2066.1,95.6730
2067.7,117.1620
2069.4,142.4230
2071.1,60.4940
2072.8,106.4670
2074.5,123.4690
2076.1,136.9580
2077.8,139.5720
2079.5,73.9370
2081.1,114.9480
2082.8,140.7400
2084.5,167.0280
2086.1,134.4750
2087.8,138.4270
2089.5,171.0120
2091.1,174.0550
2092.8,82.8890
2094.4,99.4700
2096.1,107.8800
2097.7,161.6720
2099.4,117.8430
2101.0,123.8230
2102.6,137.9750
2104.3,114.2360
2105.9,162.4050
2107.6,22.9020
2109.2,208.8030
2110.8,215.2200
2112.5,215.3850
2114.1,182.4600
2115.7,230.0080
2117.3,177.8930
2119.0,221.0790
2120.6,188.4220
2122.2,210.4760
2123.8,157.3160
2125.4,143.9600
2127.1,194.2800
2129.9,226.8680
2132.7,199.5710
2135.5,77.6510
2138.3,166.7930
2141.0,288.3530
2143.8,195.5420
2146.6,153.7170
2149.4,300.7980
2152.1,252.2800
2154.9,183.2170
2157.7,315.3450
2160.4,345.3210
2163.2,253.3090
2165.9,287.5830
2168.7,202.2000
2171.4,236.2610
2174.2,272.5810
2177.0,239.1940
2179.7,245.2080
2182.5,255.1430
2185.2,236.6230
2187.9,153.8930
2190.7,237.0320
2193.4,200.9450
2196.2,173.3030
2198.9,185.9410
2201.6,214.1380
2204.4,226.0740
2207.1,202.4880
2209.8,154.3280
2212.6,283.8200
2215.3,229.5540
2218.0,240.0230
2220.7,183.3180
2223.5,278.8570
2226.2,279.7100
2228.9,208.4770
2231.6,217.4240
2234.3,188.4460
2237.0,224.6820
2239.7,181.0120
2242.4,127.9390
2245.1,238.0840
2247.8,194.8720
2250.6,219.3570
2253.3,277.9650
2255.9,172.1070
2258.6,126.5070
2261.3,138.4330
2264.0,95.4940
2266.7,96.1680
2269.4,46.9040
2272.1,73.7010
2274.8,65.4180
2277.5,104.8630
2280.1,3.9640
2282.8,99.3260
2285.5,73.9020
2288.2,83.9030
2290.8,49.9190
2293.5,136.6190
2296.2,101.6720
2298.8,84.4850
2301.5,94.6600
2304.2,84.0460
2306.8,147.3910
2309.5,94.1210
2312.2,93.9320
2314.8,105.9980
2317.5,133.7900
2320.1,111.7420
2322.8,93.4780
2325.4,111.3420
2328.1,54.0330
2330.7,166.9550
2333.3,113.3220
2336.0,166.1190
2338.6,219.2170
2341.2,224.1760
2343.9,281.6070
2346.5,246.2570
2349.1,264.8310
2351.8,243.3590
2354.4,200.2670
2357.0,179.2980
2359.6,141.7130
2362.3,152.5950
2364.9,191.3200
2367.5,203.6880
2370.1,176.1530
2372.7,147.9210
2375.3,88.6820
2377.9,117.7260
2380.5,36.5620
2383.1,99.9100
2385.7,61.1570
2388.3,72.9730
2390.9,61.4190
2393.5,74.8950
2396.1,63.5700
2398.7,50.7520
2401.3,56.6850
2403.9,55.1420
2406.5,30.6500
2409.0,68.5210
2411.6,54.7240
2414.2,72.8930
2416.8,89.6530
2419.3,69.2500
2421.9,92.2380
2424.5,111.2310
2427.1,82.0330
2429.6,95.1490
2432.2,105.6620
2434.7,126.8240
2437.3,161.9460
2439.9,165.2840
2442.4,184.5040
2445.0,173.0280
2447.5,228.1220
2450.1,220.9650
2452.6,231.4210
2455.2,284.8410
2457.7,190.8440
2460.2,190.4710
2462.8,134.9300
2465.3,177.8460
2467.8,128.3820
2470.4,138.3300
2472.9,99.5340
2475.4,97.0020
2478.0,104.3700
2480.5,95.2390
2483.0,100.3980
2485.5,141.6810
2488.0,127.5960
2490.6,124.5450
2493.1,113.2340
2495.6,102.9870
2498.1,102.1740
2500.6,115.3170
2503.1,151.8770
2505.6,146.7460
2508.1,158.9020
2510.6,192.5930
2513.1,112.9800
2515.6,155.3170
2518.1,155.3790
2520.6,204.3160
2523.0,239.0020
2525.5,260.3790
2528.0,230.5210
2530.5,174.3180
2533.0,153.1760
2535.4,141.5350
2537.9,129.9360
2540.4,142.0610
2542.9,115.6570
2545.3,130.8700
2547.8,139.1500
2550.3,154.0550
2552.7,105.7990
2555.2,182.0170
2557.6,136.0890
2560.1,174.9530
2562.5,200.0470
2565.0,206.9890
2567.4,279.7590
2569.9,284.2120
2572.3,321.8850
2574.8,382.9100
2577.2,368.6730
2579.6,364.3290
2582.1,351.9990
2584.5,323.1420
2586.9,418.9860
2589.4,420.1860
2591.8,451.1630
2594.2,531.8570
2596.6,577.9300
2599.0,607.7300
2601.5,636.2720
2603.9,630.1270
2606.3,541.5100
2608.7,550.3890
2611.1,485.4700
2613.5,418.8170
2615.9,420.0920
2618.3,437.2150
2620.7,495.0470
2623.1,531.0220
2625.5,933.8500
2627.9,909.3450
2630.3,1497.3210
2632.7,1616.6090
2635.0,627.1480
2637.4,433.3380
2639.8,431.6140
2642.2,428.4470
2644.6,534.8490
2646.9,587.0310
2649.3,802.4330
2651.7,916.3670
2654.0,1462.0110
2656.4,1812.9130
2658.8,2679.9840
2661.1,3308.6150
2663.5,3178.2470
2665.8,2487.8660
2668.2,1727.9030
2670.5,1447.7950
2672.9,1129.4740
2675.2,993.6120
2677.6,964.5600
2679.9,990.2550
2682.3,1169.3590
2684.6,1370.6400
2686.9,1386.5770
2689.3,1356.3680
2691.6,1595.4120
2693.9,1746.2020
2696.3,1869.8530
2698.6,1484.4510
2700.9,832.0840
2703.2,691.8080
2705.5,539.2910
2707.8,477.0180
2710.2,367.2750
2712.5,384.9030
2714.8,321.4190
2717.1,301.8240
2719.4,258.9140
2721.7,277.9370
2724.0,252.2350
2726.3,272.0690
2728.6,243.0320
2730.9,244.1690
2733.1,275.0130
2735.4,188.9020
2737.7,273.5340
2740.0,210.1860
2742.3,182.9750
2744.6,225.4030
2746.8,215.7910
2749.1,228.7560
2751.4,234.5510
2753.6,267.8530
2755.9,289.7170
2758.2,306.8150
2760.4,311.7640
2762.7,332.3170
2764.9,303.1800
2767.2,397.8930
2769.5,355.0350
2771.7,387.8660
2774.0,392.4600
2776.2,381.3790
2778.4,445.4530
2780.7,447.8560
2782.9,528.6930
2785.2,556.2170
2787.4,637.9640
2789.6,681.4670
2791.8,853.6800
2794.1,975.5040
2796.3,1142.3500
2798.5,1341.6630
2800.7,1033.7100
2803.0,935.3500
2805.2,955.3960
2807.4,988.8760
2809.6,1024.3540
2811.8,1149.9000
2814.0,1315.2500
2816.2,1407.2660
2818.4,1702.2850
2820.6,1841.7120
2822.8,2279.9750
2825.0,2563.0370
2827.2,3118.7500
2829.4,3433.9820
2831.6,4372.2750
2833.7,5014.7420
2835.9,7175.2940
2838.1,8506.4460
2840.3,14197.7270
2842.4,17508.5730
2844.6,29500.0160
2846.8,37172.6280
2849.0,50644.7610
2851.1,60249.3460
2853.3,48804.3670
2855.4,37584.1120
2857.6,23716.3940
2859.8,18341.1640
2861.9,14338.9060
2864.1,12764.3350
2866.2,12131.0760
2868.4,12316.2640
2870.5,11693.7510
2872.6,11392.1070
2874.8,10480.6030
2876.9,10181.7330
2879.0,10706.2150
2881.2,11377.0940
2883.3,13000.1860
2885.4,14048.5070
2887.6,14063.6800
2889.7,13635.7480
2891.8,13577.6930
2893.9,14063.8070
2896.0,13916.8590
2898.1,13910.1350
2900.3,13547.7220
2902.4,13461.3780
2904.5,13825.7700
2906.6,14475.7470
2908.7,16350.7110
2910.8,17907.9280
2912.9,21867.9370
2915.0,24753.4420
2917.1,32084.2520
2919.1,36958.1260
2921.2,41332.7720
2923.3,43153.0790
2925.4,35344.5650
2927.5,31216.8430
2929.5,30201.1040
2931.6,32324.1310
2933.7,40584.5110
2935.8,48295.0160
2937.8,45992.6360
2939.9,41117.7880
2942.0,27126.7960
2944.0,21740.7430
2946.1,15343.6420
2948.1,13571.7660
2950.2,10664.5860
2952.2,9632.4600
2954.3,7766.3900
2956.3,7357.9400
2958.4,6158.0250
2960.4,5767.3880
2962.4,4822.0610
2964.5,4553.6750
2966.5,3871.8060
2968.5,3714.6970
2970.6,3186.4390
2972.6,3154.1450
2974.6,2789.6980
2976.6,2746.9790
2978.7,2415.5600
2980.7,2310.5130
2982.7,2070.6910
2984.7,2086.8340
2986.7,1830.6770
2988.7,1827.9350
2990.7,1647.7260
2992.7,1648.3850
2994.7,1504.3600
2996.7,1526.9790
2998.7,1324.3130
3000.7,1395.7710
3002.7,1198.0940
3004.7,1180.5450
3006.7,1123.0150
3008.6,1114.3590
3010.6,1031.6350
3012.6,1021.9580
3014.6,947.8740
3016.5,879.1540
3018.5,844.6670
3020.5,802.5060
3022.4,698.1270
3024.4,750.8720
3026.4,630.2920
3028.3,692.8340
3030.3,656.4630
3032.2,643.8270
3034.2,579.0900
3036.1,567.6860
3038.1,524.7560
3040.0,537.9980
3042.0,438.2970
3043.9,507.0210
3045.8,388.4510
3047.8,470.1940
3049.7,330.3140
3051.6,391.3910
3053.6,304.0270
3055.5,425.7330
3057.4,356.2860
3059.3,377.2680
3061.2,380.2380
3063.1,384.4600
3065.1,323.8360
3067.0,344.5110
3068.9,298.7770
3070.8,330.0250
3072.7,274.9360
3074.6,348.5790
3076.5,296.9500
3078.4,326.6480
3080.3,255.7080
3082.1,292.6670
3084.0,294.0610
3085.9,320.3270
3087.8,348.5830
3089.7,358.7670
3091.6,278.7300
3093.4,270.3350
3095.3,290.6400
3097.2,283.0520
3099.0,293.2570
3100.9,283.6290
3102.8,289.8150
3104.6,286.7540
3106.5,269.8130
3108.3,322.9890
3110.2,274.2860
3112.0,353.2720
3113.9,322.1830
3115.7,384.6780
3117.6,255.9720
3119.4,421.2680
3121.3,219.6810
3123.1,339.4340
3124.9,299.6360
3126.7,357.1300
3128.6,291.2260
3130.4,336.7020
3132.2,334.4860
3134.0,407.3010
3135.9,274.8360
3137.7,379.7020
3139.5,297.0940
3141.3,307.7620
3143.1,341.1090
3144.9,405.1570
3146.7,332.4610
3148.5,449.3530
3150.3,241.9680
3152.1,454.1620
3153.9,346.1480
3155.7,406.1420
3157.5,317.8580
3159.3,426.9820
3161.0,306.0720
3162.8,443.4200
3164.6,322.2750
3166.4,404.8010
3168.2,366.2250
3169.9,488.3750
3171.7,521.8030
3173.5,443.4600
3175.2,394.5510
3177.0,427.2700
3178.7,358.0410
3180.5,428.6420
3182.2,373.3400
3184.0,626.8490
3185.7,383.5200
3187.5,491.4010
3189.2,472.2400
3191.0,498.3700
3192.7,317.6560
3194.5,518.4010
3196.2,541.1200
3197.9,339.1270
3199.6,269.0070
3201.4,445.1460
3203.1,448.2410
3204.8,363.8150
3206.5,611.6820
3208.2,657.9270
3210.0,430.5290
3211.7,570.2010
3213.4,375.7150
3215.1,498.5250
3216.8,456.0520
3218.5,614.5930
3220.2,376.3250
3221.9,510.4110
3223.6,608.5440
3225.3,549.4770
3227.0,402.3700
3228.6,676.2930
3230.3,485.5900
3232.0,544.3290
3233.7,361.3850
3235.4,640.8630
3237.0,463.5800
3238.7,435.8920
3240.4,445.9570
3242.0,346.1000
3243.7,367.3550
3245.4,568.8540
3247.0,471.1420
3248.7,604.3340
3250.3,411.0610
3252.0,492.7420
3253.6,390.2470
3255.3,372.7370
3256.9,486.8380
3258.6,498.6310
3260.2,628.7740
3261.8,521.3580
3263.5,571.2190
3265.1,620.5920
3266.7,561.5680
