wavenumber,intensity
302.3,3187.8780
305.3,3258.8210
308.4,3056.9820
311.4,2964.0320
314.4,2530.0050
317.4,2572.8100
320.4,2338.2140
323.5,2423.1590
326.5,2322.1830
329.5,2483.6990
332.5,2541.3460
335.5,2617.6480
338.5,2584.3990
341.5,2692.1680
344.5,2627.5730
347.4,2715.3850
350.4,2804.0170
353.4,2921.4690
356.4,3136.4650
359.4,3387.3420
362.3,3224.0700
365.3,3015.4120
368.3,2634.1420
371.2,2566.8350
374.2,2521.7570
377.2,2591.2990
380.1,2745.9940
383.1,2996.2990
386.0,3662.0180
389.0,4225.9400
391.9,5354.1160
394.9,6446.9020
397.8,6137.4520
400.7,5514.9170
403.7,4063.0950
406.6,3648.3330
409.5,3427.6290
412.5,3540.7380
415.4,3177.4480
418.3,2941.7460
421.2,2634.8400
424.1,2648.3950
427.0,2722.3030
429.9,2943.9510
432.9,3300.9690
435.8,3672.7740
438.7,3524.2030
441.5,3452.7330
444.4,2766.4220
447.3,2503.8850
450.2,2219.4100
453.1,2220.1550
456.0,2100.2870
458.9,2098.5360
461.7,2114.2640
464.6,2148.4670
467.5,2224.8530
470.4,2298.6430
473.2,2216.3270
476.1,2288.2670
478.9,2276.5230
481.8,2332.9060
484.6,2372.5170
487.5,2480.8790
490.3,2519.5610
493.2,2606.2440
496.0,2458.3780
498.9,2527.4750
501.7,2401.9040
504.5,2406.1490
507.4,2432.8130
510.2,2554.3240
513.0,3112.0420
515.9,3605.1800
518.7,4459.8920
521.5,5276.5420
524.3,4728.9690
527.1,4448.5310
529.9,4417.5300
532.7,4832.6880
535.5,4936.8150
538.3,5158.8560
541.1,4806.2100
543.9,4938.0100
546.7,4543.5750
549.5,4603.0380
552.3,3908.9010
555.1,3654.2590
557.9,2902.6760
560.6,2760.7800
563.4,2485.4830
566.2,2449.1420
568.9,2447.5870
571.7,2506.2020
574.5,2666.5590
577.2,2879.0370
580.0,3042.1110
582.7,3100.7030
585.5,2571.7330
588.2,2389.4920
591.0,2152.8370
593.7,2123.0890
596.5,2019.3090
599.2,2084.2270
602.0,2013.9130
604.7,2022.5960
607.4,2038.4380
610.1,2044.7980
612.9,2071.7440
615.6,2097.5480
618.3,2156.9480
621.0,2240.8360
623.7,2351.8930
626.5,2558.0590
629.2,2867.9930
631.9,3164.7740
634.6,3573.3670
637.3,3876.2490
640.0,3529.4880
642.7,3291.8890
645.4,2654.7010
648.1,2438.1860
650.7,2148.7940
653.4,2078.1120
656.1,1911.6700
658.8,1923.8770
661.5,1882.1600
664.1,1857.0250
666.8,1866.5540
669.5,1859.7870
672.1,1906.5630
674.8,2007.0520
677.5,1980.1110
680.1,2011.8990
682.8,1950.7190
685.4,1947.3430
688.1,1966.8310
690.7,2001.2490
693.4,2076.3350
696.0,2104.9690
698.6,2103.5580
701.3,2120.1060
703.9,2076.2210
706.5,2031.5760
709.2,1943.3110
711.8,1969.1180
714.4,1935.5320
717.0,1919.1720
719.6,1928.0230
722.3,1921.6890
724.9,2011.0160
727.5,2123.9590
730.1,2235.8310
732.7,2394.2070
735.3,2336.1070
737.9,2246.5130
740.5,2033.4510
743.1,1965.1700
745.7,1879.7830
748.2,1828.9740
750.8,1730.5930
753.4,1711.2330
756.0,1682.5590
758.6,1660.9810
761.1,1629.2740
763.7,1639.0620
766.3,1632.6210
768.8,1585.5200
771.4,1574.4900
774.0,1614.8720
776.5,1580.7460
779.1,1571.6350
781.6,1586.1430
784.2,1601.3230
786.7,1553.8130
789.3,1539.1080
791.8,1549.3710
794.4,1557.8730
796.9,1545.7630
799.4,1551.7130
802.0,1580.0400
804.5,1559.0490
807.0,1571.0140
809.5,1577.4380
812.1,1597.5760
814.6,1621.3440
817.1,1617.2820
819.6,1634.6960
822.1,1694.4200
824.6,1727.0850
827.1,1816.3600
829.6,1889.2870
832.1,2106.3750
834.6,2293.4990
837.1,2902.1690
839.6,3439.5340
842.1,4693.4290
844.6,5863.6640
847.1,5957.9610
849.6,5360.2790
852.0,3448.6240
854.5,2924.1750
857.0,2455.4840
859.5,2381.8950
861.9,2409.9520
864.4,2556.1450
866.9,2578.0430
869.3,2607.0940
871.8,2420.3370
874.2,2419.9480
876.7,2105.0770
879.1,1979.1070
881.6,1833.1890
884.0,1792.6510
886.5,1771.3220
888.9,1763.2440
891.3,1768.3910
893.8,1792.1860
896.2,1821.2450
898.6,1948.2240
901.1,2128.7100
903.5,2344.6580
905.9,2593.5860
908.3,2828.7490
910.8,2770.8550
913.2,2927.2980
915.6,2935.2760
918.0,3086.0350
920.4,2826.9800
922.8,2687.3530
925.2,2212.5880
927.6,2118.6200
930.0,2059.0990
932.4,2125.3770
934.8,2258.0480
937.2,2408.0650
939.6,2416.7670
941.9,2366.7120
944.3,2057.1120
946.7,1891.0140
949.1,1750.8980
951.5,1660.9790
953.8,1626.2950
956.2,1622.8410
958.6,1600.6820
960.9,1582.2620
963.3,1593.3950
965.6,1590.7410
968.0,1583.3770
970.4,1598.8670
972.7,1592.9340
975.1,1648.8800
977.4,1623.7880
979.7,1686.9010
982.1,1768.7760
984.4,1841.3740
986.8,1885.6960
989.1,1933.9710
991.4,1886.6500
993.8,1873.8880
996.1,1895.7350
998.4,1982.6480
1000.7,2091.0360
1003.0,2233.1720
1005.4,2388.5610
1007.7,2581.2080
1010.0,2612.8370
1012.3,2628.1050
1014.6,2336.3360
1016.9,2251.1720
1019.2,2038.8790
1021.5,2029.7600
1023.8,2108.4480
1026.1,2226.4540
1028.4,2642.4460
1030.7,3034.5460
1033.0,3598.4190
1035.2,4133.4160
1037.5,3785.6590
1039.8,3591.3750
1042.1,3106.7280
1044.3,2982.4590
1046.6,2801.5430
1048.9,2799.4580
1051.2,2658.2340
1053.4,2580.2850
1055.7,2369.2190
1057.9,2377.1490
1060.2,2324.3780
1062.4,2373.6660
1064.7,2413.3780
1066.9,2447.4390
1069.2,2458.9090
1071.4,2547.7630
1073.7,2564.5500
1075.9,2732.2840
1078.2,2752.5310
1080.4,2835.1700
1082.6,2802.6000
1084.9,2916.5250
1087.1,2824.9710
1089.3,2820.1410
1091.5,2645.0100
1093.7,2615.9360
1096.0,2655.1660
1098.2,2763.8000
1100.4,2763.3410
1102.6,2868.2330
1104.8,2771.3180
1107.0,2787.1210
1109.2,2909.4760
1111.4,3121.0380
1113.6,3401.7540
1115.8,3725.1460
1118.0,3972.7150
1120.2,4317.1670
1122.4,4268.5000
1124.6,4360.3000
1126.7,3761.3680
1128.9,3596.5730
1131.1,3042.3650
1133.3,2884.8200
1135.4,2503.7570
1137.6,2386.9230
1139.8,2144.7950
1142.0,2095.1400
1144.1,2017.0820
1146.3,2024.9950
1148.4,2074.4120
1150.6,2205.9170
1152.7,2426.6200
1154.9,2664.8300
1157.0,2815.5620
1159.2,2931.7400
1161.3,2575.9790
1165.0,2320.6940
1167.5,2355.8840
1170.0,2367.4560
1172.5,1982.0040
1175.0,1918.6890
1177.5,1745.5280
1180.0,1658.4600
1182.5,1620.8860
1185.0,1558.8980
1187.5,1588.8410
1189.9,1640.6730
1192.4,1615.9660
1194.9,1793.3460
1197.4,1887.7260
1199.9,1988.4480
1202.4,2042.9580
1204.9,2117.6040
1207.3,1949.5260
1209.8,1984.6700
1212.3,1899.5690
1214.8,1861.7410
1217.2,1865.0910
1219.7,2024.5390
1222.2,2145.8090
1224.6,2494.3540
1227.1,2790.0560
1229.5,3245.5670
1232.0,3550.5240
1234.5,3731.7930
1236.9,3558.7330
1239.4,3198.4290
1241.8,2970.4880
1244.3,2470.1480
1246.7,2408.2140
1249.2,2269.8840
1251.6,2310.4130
1254.1,2351.5810
1256.5,2382.7720
1258.9,2222.6430
1261.4,2234.6330
1263.8,2081.9360
1266.2,2111.7170
1268.7,2024.2010
1271.1,1971.5040
1273.5,1917.9040
1276.0,1841.3090
1278.4,1659.7630
1280.8,1558.9790
1283.2,1479.4080
1285.6,1422.1760
1288.1,1431.1100
1290.5,1341.6620
1292.9,1405.5530
1295.3,1443.9530
1297.7,1530.0100
1300.1,1423.4640
1302.5,1527.1920
1304.9,1503.9660
1307.3,1481.7700
1309.7,1439.3450
1312.1,1719.8870
1314.5,1830.4260
1316.9,2183.7760
1319.3,2450.0770
1321.7,2458.9950
1324.1,2400.4440
1326.5,2086.7330
1328.9,2100.3530
1331.2,1990.2190
1333.6,2126.0290
1336.0,2394.2310
1338.4,2674.4730
1340.8,2966.4990
1343.1,3437.9350
1345.5,3082.1400
1347.9,3033.9020
1350.2,2649.4210
1352.6,2514.3380
1355.0,2488.6540
1357.3,2756.4400
1359.7,2969.1170
1362.0,3312.9100
1364.4,3031.3720
1366.8,3023.3960
1369.1,2803.9360
1371.5,2808.7410
1373.8,2588.6290
1376.2,2683.7000
1378.5,2238.4050
1380.8,2146.5900
1383.2,1767.4190
1385.5,1729.7770
1387.9,1546.4190
1390.2,1527.9370
1392.5,1491.3670
1394.9,1531.7170
1397.2,1520.0200
1399.5,1662.9940
1401.8,1763.9170
1404.2,1925.3330
1406.5,1913.4370
1408.8,2013.7310
1411.1,1983.7310
1413.5,2030.3540
1415.8,2062.5250
1418.1,2157.0100
1420.4,2210.6800
1422.7,2191.9290
1425.0,2179.9360
1427.3,2236.4640
1429.6,2022.5260
1431.9,2031.4320
1434.2,1953.9910
1436.5,1875.2740
1438.8,1665.4450
1441.1,1711.5990
1443.4,1679.8740
1445.7,1791.0550
1448.0,2227.6110
1450.3,2720.8500
1452.5,3730.0250
1454.8,4609.6360
1457.1,5213.9040
1459.4,5515.7350
1461.7,3968.8250
1463.9,3258.1450
1466.2,2332.0880
1468.5,2195.8420
1470.8,1848.4380
1473.0,1811.2250
1475.3,1216.5220
1477.6,974.7130
1479.8,623.6770
1482.1,538.9840
1484.3,485.1910
1486.6,402.1040
1488.8,397.7520
1491.1,419.0520
1493.3,368.7000
1495.6,380.2080
1497.8,295.3150
1500.1,267.2260
1502.3,250.7100
1504.6,237.8930
1506.8,232.9630
1509.0,243.0860
1511.3,163.9440
1513.5,214.1780
1515.7,192.1030
1518.0,228.2670
1520.2,195.7060
1522.4,234.4890
1524.6,210.2490
1526.9,203.2010
1529.1,181.3720
1531.3,213.0100
1533.5,203.9230
1535.7,237.2000
1537.9,180.4730
1540.2,171.9840
1542.4,162.2100
1544.6,137.1570
1546.8,142.7290
1549.0,124.8590
1551.2,165.3390
1553.4,200.9440
1555.6,139.2020
1557.8,115.3740
1560.0,154.2310
1562.2,155.5220
1564.3,179.1210
1566.5,205.7580
1568.7,168.4190
1570.9,187.8920
1573.1,159.9900
1575.3,152.1840
1577.4,142.4760
1579.6,157.9170
1581.8,122.3690
1584.0,148.4780
1586.1,94.9700
1588.3,133.2070
1590.5,117.7460
1592.6,153.8070
1594.8,120.7320
1596.9,135.9070
1599.1,131.4760
1601.3,132.0210
1603.4,110.4470
1605.6,149.8970
1607.7,122.5410
1609.9,103.3810
1612.0,142.4500
1614.2,123.0320
1616.3,159.0630
1618.4,121.3330
1620.6,109.7800
1622.7,151.5510
1624.9,118.5740
1627.0,139.2930
1629.1,126.8420
1631.2,107.1390
1633.4,122.2450
1635.5,105.6130
1637.6,149.7370
1639.7,115.5450
1641.9,196.7980
1644.0,99.8750
1646.1,133.2340
1648.2,93.2220
1650.3,118.5070
1652.4,114.3640
1654.5,163.5260
1656.6,112.8690
1658.8,113.2590
1660.9,141.6830
1663.0,142.4880
1665.1,105.4050
1667.1,106.6980
1669.2,125.9090
1671.3,84.2060
1673.4,106.5010
1675.5,120.0200
1677.6,106.5760
1679.7,117.0900
1681.8,112.4710
1683.8,137.3560
1685.9,103.3650
1688.0,126.2180
1690.1,84.8100
1692.2,114.2760
1694.2,104.8740
1696.3,114.8950
1698.4,120.1910
1700.4,92.2990
1702.5,103.7030
1704.6,140.5460
1706.6,98.7670
1708.7,93.4290
1710.7,115.7630
1712.8,128.7250
1714.8,131.6280
1716.9,152.0040
1718.9,133.8570
1721.0,162.5060
1723.0,118.4930
1725.1,118.2660
1727.1,125.0420
1729.1,109.9480
1731.2,107.2620
1733.2,114.4610
1735.2,115.9810
1737.3,89.9670
1739.3,94.0150
1741.3,132.3500
1743.4,148.0150
1745.4,113.6980
1747.4,105.8300
1749.4,127.9500
1751.4,114.4630
1753.5,123.8850
1755.5,105.9040
1757.5,94.0600
1759.5,135.1810
1761.5,104.2170
1763.5,112.7690
1765.5,91.5550
1767.5,97.9720
1769.5,90.0870
1771.5,84.0540
1773.5,106.4700
1775.5,79.6310
1777.5,92.3420
1779.5,84.7800
1781.5,96.8950
1783.4,155.8300
1785.4,112.3040
1787.4,121.6100
1789.4,146.8440
1791.4,114.4790
1793.3,77.3240
1795.3,86.8630
1797.3,74.7440
1799.3,132.0540
1801.2,87.7700
1803.2,100.3760
1805.2,123.3130
1807.1,101.7520
1809.1,125.0360
1811.0,131.5850
1813.0,118.4550
1815.0,146.3500
1816.9,125.2270
1818.9,127.3840
1820.8,101.6540
1822.8,128.5360
1824.7,98.7880
1826.6,88.5410
1828.6,126.1800
1830.5,124.8560
1832.5,82.8400
1834.4,107.5140
1836.3,112.4140
1838.3,23.8150
1840.2,99.4790
1842.1,87.7050
1844.0,73.2220
1846.0,117.6540
1847.9,159.2930
1849.8,123.5410
1851.7,104.3270
1853.6,133.2650
1855.6,72.0660
1857.5,115.2190
1859.4,131.2950
1861.3,102.8420
1863.2,64.3210
1865.1,112.8410
1867.0,98.0020
1868.9,113.2220
1870.8,124.7310
1872.7,132.9240
1874.6,116.3220
1876.5,109.2640
1878.4,102.7950
1880.3,104.7160
1882.2,149.1430
1884.0,107.9220
1885.9,128.6740
1887.8,103.6470
1889.7,108.1070
1891.6,127.6160
1893.4,119.1250
1895.3,74.2050
1897.2,75.6260
1899.0,77.4580
1900.9,108.6370
1902.8,65.5250
1904.6,114.9200
1906.5,90.0340
1908.4,148.1210
1910.2,114.1340
1912.1,108.9040
1913.9,113.5290
1915.8,88.3460
1917.6,133.0290
1919.5,115.9120
1921.3,124.5090
1923.2,114.6490
1925.0,141.0340
1926.9,147.8200
1928.7,135.9080
1930.5,130.0700
1932.4,122.8610
1934.2,134.6850
1936.0,72.0500
1937.9,167.2370
1939.7,101.7890
1941.5,126.2380
1943.3,112.2760
1945.1,140.1520
1947.0,101.8230
1948.8,127.1720
1950.6,109.5960
1952.4,72.8350
1954.2,103.1100
1956.0,80.2950
1957.8,126.9390
1959.6,131.2610
1961.4,140.7500
1963.2,166.0850
1965.0,152.0440
1966.8,156.6020
1968.6,171.9760
1970.4,209.7330
1972.2,152.1460
1974.0,177.4230
1975.8,142.1010
1977.6,179.0440
1979.4,182.3210
1981.1,156.8930
1982.9,105.5770
1984.7,170.9700
1986.5,115.9200
1988.3,127.8420
1990.0,104.7490
1991.8,132.7190
1993.6,103.0780
1995.3,143.2960
1997.1,108.1510
1998.9,125.7720
2000.6,125.1830
2002.4,114.0860
2004.1,162.8350
2005.9,139.3710
2007.6,160.5590
2009.4,141.9490
2011.1,110.7660
2012.9,148.5280
2014.6,163.4510
2016.4,162.2310
2018.1,171.5760
2019.8,139.9160
2021.6,103.8670
2023.3,147.4010
2025.1,129.9900
2026.8,105.2150
2028.5,106.7990
2030.2,102.5470
2032.0,148.2830
2033.7,142.5310
2035.4,134.2280
2037.1,205.7850
2038.8,232.4970
2040.6,78.4650
2042.3,131.9040
2044.0,51.2870
2045.7,166.5510
2047.4,104.6610
2049.1,108.1440
2050.8,131.6850
2052.5,148.2110
2054.2,113.7360
2055.9,130.8210
2057.6,146.2730
2059.3,150.9950
2061.0,113.4510
2062.7,200.3940
2064.4,102.8310
2066.1,209.6410
2067.7,182.3300
2069.4,134.7890
2071.1,199.8920
2072.8,124.0680
2074.5,216.6380
2076.1,127.4100
2077.8,189.7510
2079.5,157.7790
2081.1,174.4820
2082.8,216.0700
2084.5,132.7620
2086.1,158.9410
2087.8,170.0140
2089.5,124.9200
2091.1,174.6630
2092.8,202.1360
2094.4,169.6910
2096.1,161.2660
2097.7,157.1170
2099.4,210.5390
2101.0,105.7500
2102.6,106.9000
2104.3,116.4210
2105.9,203.6320
2107.6,168.5870
2109.2,180.2960
2110.8,201.7470
2112.5,163.1970
2114.1,209.2160
2115.7,182.3360
2117.3,157.2680
2119.0,222.0940
2120.6,169.1020
2122.2,178.9520
2123.8,147.0890
2125.4,156.9900
2127.1,117.6690
2129.9,243.9180
2132.7,156.7480
2135.5,146.2660
2138.3,236.4060
2141.0,289.0500
2143.8,196.5220
2146.6,260.3360
2149.4,250.8320
2152.1,226.3200
2154.9,95.6990
2157.7,186.5970
2160.4,302.8880
2163.2,207.7000
2165.9,293.5840
2168.7,209.5950
2171.4,261.5600
2174.2,266.2610
2177.0,244.0390
2179.7,176.8830
2182.5,137.1750
2185.2,225.0560
2187.9,163.1750
2190.7,186.7070
2193.4,172.8310
2196.2,144.6560
2198.9,114.5070
2201.6,202.4160
2204.4,100.4590
2207.1,305.8920
2209.8,125.5680
2212.6,214.9220
2215.3,207.2040
2218.0,137.1350
2220.7,176.3600
2223.5,197.5970
2226.2,135.4390
2228.9,191.6970
2231.6,90.9300
2234.3,210.1560
2237.0,217.1580
2239.7,223.2320
2242.4,165.3050
2245.1,151.9830
2247.8,165.8240
2250.6,155.2210
2253.3,133.6500
2255.9,70.9460
2258.6,84.9600
2261.3,140.7120
2264.0,150.8020
2266.7,156.7640
2269.4,67.6480
2272.1,108.5060
2274.8,69.1520
2277.5,108.7570
2280.1,73.3320
2282.8,54.7500
2285.5,61.1420
2288.2,0.0000
2290.8,36.7700
2293.5,62.5140
2296.2,49.9930
2298.8,44.5120
2301.5,68.1920
2304.2,35.1510
2306.8,77.4850
2309.5,73.2410
2312.2,73.3580
2314.8,77.2400
2317.5,116.5430
2320.1,92.0280
2322.8,103.3430
2325.4,81.0490
2328.1,78.2400
2330.7,76.9370
2333.3,49.4010
2336.0,88.0730
2338.6,91.0680
2341.2,70.6090
2343.9,71.6860
2346.5,24.9830
2349.1,38.8220
2351.8,56.3620
2354.4,39.4730
2357.0,45.4180
2359.6,24.6820
2362.3,68.6680
2364.9,69.1020
2367.5,97.7190
2370.1,72.8460
2372.7,54.4930
2375.3,70.9780
2377.9,100.8110
2380.5,32.7450
2383.1,46.9430
2385.7,75.5310
2388.3,106.0190
2390.9,48.4790
2393.5,74.4700
2396.1,52.2510
2398.7,65.5450
2401.3,84.9130
2403.9,109.5040
2406.5,59.9180
2409.0,87.8430
2411.6,52.3310
2414.2,36.7000
2416.8,70.6650
2419.3,50.2950
2421.9,73.4200
2424.5,64.5350
2427.1,77.2690
2429.6,77.0900
2432.2,81.8240
2434.7,76.5890
2437.3,48.2810
2439.9,69.3260
2442.4,47.2520
2445.0,64.2690
2447.5,63.2020
2450.1,92.8660
2452.6,42.6860
2455.2,79.7500
2457.7,48.6620
2460.2,69.5060
2462.8,80.2980
2465.3,102.6800
2467.8,78.6890
2470.4,111.6500
2472.9,74.1420
2475.4,106.5960
2478.0,73.8410
2480.5,93.4160
2483.0,73.3520
2485.5,73.8400
2488.0,110.0070
2490.6,100.1510
2493.1,72.7470
2495.6,108.2150
2498.1,95.2290
2500.6,116.8550
2503.1,54.1420
2505.6,66.4750
2508.1,71.0050
2510.6,117.4530
2513.1,66.5190
2515.6,105.9150
2518.1,98.9600
2520.6,137.4320
2523.0,98.8250
2525.5,140.8280
2528.0,99.9370
2530.5,118.8600
2533.0,115.8940
2535.4,131.0650
2537.9,99.7700
2540.4,112.9300
2542.9,168.1610
2545.3,126.9570
2547.8,136.0270
2550.3,121.8820
2552.7,128.0420
2555.2,124.6610
2557.6,133.3080
2560.1,125.0600
2562.5,108.9520
2565.0,104.4120
2567.4,147.7280
2569.9,123.5760
2572.3,134.1710
2574.8,139.2560
2577.2,148.4290
2579.6,148.1510
2582.1,161.0850
2584.5,161.8630
2586.9,149.8190
2589.4,173.2440
2591.8,178.4050
2594.2,198.3800
2596.6,172.6380
2599.0,188.9590
2601.5,221.1110
2603.9,212.6190
2606.3,192.5480
2608.7,242.4820
2611.1,247.0910
2613.5,242.0760
2615.9,264.0050
2618.3,300.4520
2620.7,337.3620
2623.1,363.5730
2625.5,339.6460
2627.9,362.4070
2630.3,341.9940
2632.7,350.1270
2635.0,328.4630
2637.4,294.0600
2639.8,308.0580
2642.2,305.4080
2644.6,307.4190
2646.9,317.0150
2649.3,299.8230
2651.7,284.4510
2654.0,308.7840
2656.4,280.9070
2658.8,295.8840
2661.1,331.2710
2663.5,335.5270
2665.8,355.9440
2668.2,373.4290
2670.5,416.2220
2672.9,419.1480
2675.2,439.7780
2677.6,475.7330
2679.9,446.8820
2682.3,431.4040
2684.6,478.5080
2686.9,433.0160
2689.3,475.4010
2691.6,459.1770
2693.9,459.5420
2696.3,460.4730
2698.6,522.2350
2700.9,513.8840
2703.2,532.3430
2705.5,576.5960
2707.8,611.4290
2710.2,689.7400
2712.5,740.9410
2714.8,781.2360
2717.1,867.3440
2719.4,887.2610
2721.7,895.2830
2724.0,852.9490
2726.3,828.5170
2728.6,791.8970
2730.9,757.1990
2733.1,693.2820
2735.4,685.7640
2737.7,622.9730
2740.0,668.9510
2742.3,590.0080
2744.6,631.3920
2746.8,599.1450
2749.1,613.7200
2751.4,556.6460
2753.6,619.8170
2755.9,604.5910
2758.2,587.2660
2760.4,560.3630
2762.7,586.1880
2764.9,579.6550
2767.2,596.4560
2769.5,595.4750
2771.7,593.2500
2774.0,586.7790
2776.2,584.3790
2778.4,591.6160
2780.7,634.8660
2782.9,623.2140
2785.2,670.0700
2787.4,650.2270
2789.6,711.1640
2791.8,731.6770
2794.1,791.2600
2796.3,798.7970
2798.5,826.0170
2800.7,817.6200
2803.0,905.4730
2805.2,906.7580
2807.4,939.3590
2809.6,935.1260
2811.8,997.7090
2814.0,971.7330
2816.2,1057.6960
2818.4,1046.0190
2820.6,1053.1290
2822.8,1029.4790
2825.0,1080.0420
2827.2,1057.7530
2829.4,1123.8040
2831.6,1094.4190
2833.7,1161.3670
2835.9,1164.1370
2838.1,1201.2450
2840.3,1258.8600
2842.4,1315.6120
2844.6,1328.8270
2846.8,1439.7770
2849.0,1451.3490
2851.1,1515.4050
2853.3,1589.3040
2855.4,1686.3000
2857.6,1801.2470
2859.8,1921.0100
2861.9,2074.9640
2864.1,2178.1270
2866.2,2405.9130
2868.4,2611.0270
2870.5,2827.5680
2872.6,3097.4570
2874.8,3407.1830
2876.9,3705.6410
2879.0,4159.7990
2881.2,4532.4020
2883.3,5277.6980
2885.4,5710.1320
2887.6,6492.8000
2889.7,7147.7300
2891.8,7811.2340
2893.9,8556.4660
2896.0,8654.8760
2898.1,8874.9150
2900.3,8764.8080
2902.4,8996.8930
2904.5,9870.6130
2906.6,10928.2420
2908.7,12507.3210
2910.8,14235.6380
2912.9,12906.1860
2915.0,11900.8780
2917.1,10156.0470
2919.1,9831.9510
2921.2,9683.2710
2923.3,10164.4000
2925.4,9676.6560
2927.5,9657.5670
2929.5,9124.0150
2931.6,9433.2110
2933.7,9938.2370
2935.8,10983.1220
2937.8,11387.8460
2939.9,12146.0590
2942.0,10787.5260
2944.0,10589.0930
2946.1,8104.4730
2948.1,7538.3400
2950.2,6700.5530
2952.2,6819.0620
2954.3,6463.1100
2956.3,6672.4830
2958.4,5759.1980
2960.4,5572.2920
2962.4,5224.6000
2964.5,5510.4870
2966.5,5967.3820
2968.5,6958.4310
2970.6,7065.8720
2972.6,6818.6790
2974.6,5859.2840
2976.6,5993.2560
2978.7,6813.7210
2980.7,7932.6440
2982.7,8206.1170
2984.7,8281.6630
2986.7,7138.9470
2988.7,7434.3910
2990.7,6839.1500
2992.7,6804.8260
2994.7,4556.9960
2996.7,3742.1160
2998.7,2681.9410
3000.7,2506.1020
3002.7,2432.7720
3004.7,2684.7360
3006.7,3152.9420
3008.6,3856.7870
3010.6,3927.2140
3012.6,4172.7210
3014.6,2837.0270
3016.5,2361.2960
3018.5,1646.4500
3020.5,1427.7230
3022.4,994.6750
3024.4,1006.3390
3026.4,787.8850
3028.3,757.6770
3030.3,680.3370
3032.2,668.0360
3034.2,566.3190
3036.1,594.2150
3038.1,455.7940
3040.0,534.8180
3042.0,498.2960
3043.9,513.3160
3045.8,408.1660
3047.8,486.7720
3049.7,386.2470
3051.6,422.4960
3053.6,335.8920
3055.5,441.7700
3057.4,359.3000
3059.3,384.3330
3061.2,427.4610
3063.1,399.6330
3065.1,354.3590
3067.0,368.8100
3068.9,298.2260
3070.8,375.5260
3072.7,350.4340
3074.6,391.1530
3076.5,342.3940
3078.4,340.1680
3080.3,262.9000
3082.1,329.1410
3084.0,264.9220
3085.9,365.8910
3087.8,315.9080
3089.7,308.5800
3091.6,356.6590
3093.4,360.0930
3095.3,350.2290
3097.2,349.0920
3099.0,321.5180
3100.9,359.6160
3102.8,273.2690
3104.6,385.9260
3106.5,342.2030
3108.3,403.5720
3110.2,321.0680
3112.0,326.2260
3113.9,292.4940
3115.7,377.1110
3117.6,327.2590
3119.4,441.1650
3121.3,373.8190
3123.1,405.7500
3124.9,358.5690
3126.7,370.9490
3128.6,485.1360
3130.4,486.7080
3132.2,462.2750
3134.0,404.6000
3135.9,425.4500
3137.7,447.0810
3139.5,475.7890
3141.3,479.7370
3143.1,455.9680
3144.9,443.2830
3146.7,538.9140
3148.5,542.7320
3150.3,456.1600
3152.1,618.5630
3153.9,437.7370
3155.7,563.2300
3157.5,522.6400
3159.3,596.2680
3161.0,549.4600
3162.8,732.5430
3164.6,578.4390
3166.4,713.7890
3168.2,606.5680
3169.9,756.8800
3171.7,683.5940
3173.5,843.5810
3175.2,594.6950
3177.0,932.2370
3178.7,828.9470
3180.5,1069.7570
3182.2,926.5430
3184.0,896.0680
3185.7,1142.8590
3187.5,974.6910
3189.2,1066.2800
3191.0,1075.4650
3192.7,1245.9780
3194.5,804.8950
3196.2,844.9140
3197.9,907.0460
3199.6,833.9080
3201.4,782.4780
3203.1,888.3730
3204.8,999.8910
3206.5,985.2310
3208.2,908.3590
3210.0,1150.8820
3211.7,1051.2470
3213.4,985.9930
3215.1,1026.6590
3216.8,935.0920
3218.5,1040.0380
3220.2,993.7920
3221.9,906.2620
3223.6,977.9200
3225.3,864.8070
3227.0,1083.9770
3228.6,841.2620
3230.3,1019.5660
3232.0,1048.9180
3233.7,840.4800
3235.4,770.5880
3237.0,875.0220
3238.7,844.6050
3240.4,921.8640
3242.0,697.2240
3243.7,816.0390
3245.4,907.3030
3247.0,623.6580
3248.7,810.9460
3250.3,709.7210
3252.0,833.0440
3253.6,766.1910
3255.3,662.5130
3256.9,588.4390
3258.6,612.9130
3260.2,761.9100
3261.8,824.6290
3263.5,697.1930
3265.1,915.6370
3266.7,562.3260
